study_word,test,reference,old_new,trials.thisRepN,trials.thisTrialN,trials.thisN,trials.thisIndex,trials_2.thisRepN,trials_2.thisTrialN,trials_2.thisN,trials_2.thisIndex,thisRow.t,notes,trial.started,text.started,slider.started,trial.stopped,slider.response,slider.rt,test_routine.started,text_2.started,textbox.started,text_3.started,mouse.started,test_routine.stopped,textbox.text,mouse.x,mouse.y,mouse.leftButton,mouse.midButton,mouse.rightButton,mouse.time,mouse.clicked_name,participant,session,date,expName,psychopyVersion,frameRate,expStart
mouse,,,,0,0,0,8,,,,,0.0280041,,0.0073233,0.0280041,0.0280041,2.5573862,3.381481481,2.5294851,,,,,,,,,,,,,,,953895,1,2024-11-07_23h47.02.163,word priming experiment,2024.1.5,None,2024-11-07 23h47.20.564627 +0530
laptop,,,,0,1,1,5,,,,,2.5715019,,2.5577101,2.5715019,2.5715019,3.189677,3.703703704,0.6112246,,,,,,,,,,,,,,,953895,1,2024-11-07_23h47.02.163,word priming experiment,2024.1.5,None,2024-11-07 23h47.20.564627 +0530
bottle,,,,0,2,2,17,,,,,3.2044574,,3.1899011,3.2044574,3.2044574,3.7898885,3.074074074,0.5811165,,,,,,,,,,,,,,,953895,1,2024-11-07_23h47.02.163,word priming experiment,2024.1.5,None,2024-11-07 23h47.20.564627 +0530
phone,,,,0,3,3,2,,,,,3.8040052,,3.7900671,3.8040052,3.8040052,4.3896502,2.485185185,0.5793691,,,,,,,,,,,,,,,953895,1,2024-11-07_23h47.02.163,word priming experiment,2024.1.5,None,2024-11-07 23h47.20.564627 +0530
marble,,,,0,4,4,3,,,,,4.404073,,4.3898372,4.404073,4.404073,5.0231662,1.8,0.6127485,,,,,,,,,,,,,,,953895,1,2024-11-07_23h47.02.163,word priming experiment,2024.1.5,None,2024-11-07 23h47.20.564627 +0530
Tshirt,,,,0,5,5,7,,,,,5.0372417,,5.0233565,5.0372417,5.0372417,5.4417243,1.8,0.396982,,,,,,,,,,,,,,,953895,1,2024-11-07_23h47.02.163,word priming experiment,2024.1.5,None,2024-11-07 23h47.20.564627 +0530
chart,,,,0,6,6,6,,,,,5.4560307,,5.4419912,5.4560307,5.4560307,6.2399593,2.888888889,0.7775593,,,,,,,,,,,,,,,953895,1,2024-11-07_23h47.02.163,word priming experiment,2024.1.5,None,2024-11-07 23h47.20.564627 +0530
camera,,,,0,7,7,18,,,,,6.2537564,,6.240195,6.2537564,6.2537564,6.8058055,3.377777778,0.5460401,,,,,,,,,,,,,,,953895,1,2024-11-07_23h47.02.163,word priming experiment,2024.1.5,None,2024-11-07 23h47.20.564627 +0530
case,,,,0,8,8,10,,,,,6.8205884,,6.8059945,6.8205884,6.8205884,7.5401727,2.637037037,0.7150952,,,,,,,,,,,,,,,953895,1,2024-11-07_23h47.02.163,word priming experiment,2024.1.5,None,2024-11-07 23h47.20.564627 +0530
cushion,,,,0,9,9,1,,,,,7.5536279,,7.540442,7.5536279,7.5536279,8.1563692,1.962962963,0.5958229,,,,,,,,,,,,,,,953895,1,2024-11-07_23h47.02.163,word priming experiment,2024.1.5,None,2024-11-07 23h47.20.564627 +0530
vase,,,,0,10,10,16,,,,,8.1704,,8.1565917,8.1704,8.1704,8.7732659,1.433333333,0.5954818,,,,,,,,,,,,,,,953895,1,2024-11-07_23h47.02.163,word priming experiment,2024.1.5,None,2024-11-07 23h47.20.564627 +0530
police,,,,0,11,11,12,,,,,8.7891297,,8.7735145,8.7891297,8.7891297,9.3896052,2.266666667,0.597316,,,,,,,,,,,,,,,953895,1,2024-11-07_23h47.02.163,word priming experiment,2024.1.5,None,2024-11-07 23h47.20.564627 +0530
book,,,,0,12,12,0,,,,,9.4035008,,9.3898108,9.4035008,9.4035008,9.992527,2.866666667,0.580364,,,,,,,,,,,,,,,953895,1,2024-11-07_23h47.02.163,word priming experiment,2024.1.5,None,2024-11-07 23h47.20.564627 +0530
pencil,,,,0,13,13,15,,,,,10.0184588,,9.9930042,10.0184588,10.0184588,10.4562095,2.874074074,0.4382168,,,,,,,,,,,,,,,953895,1,2024-11-07_23h47.02.163,word priming experiment,2024.1.5,None,2024-11-07 23h47.20.564627 +0530
table,,,,0,14,14,19,,,,,10.4699657,,10.45646,10.4699657,10.4699657,11.1393276,3.318518519,0.6652799,,,,,,,,,,,,,,,953895,1,2024-11-07_23h47.02.163,word priming experiment,2024.1.5,None,2024-11-07 23h47.20.564627 +0530
poster,,,,0,15,15,14,,,,,11.1531044,,11.1395925,11.1531044,11.1531044,11.8229952,2.737037037,0.6651683,,,,,,,,,,,,,,,953895,1,2024-11-07_23h47.02.163,word priming experiment,2024.1.5,None,2024-11-07 23h47.20.564627 +0530
cruise,,,,0,16,16,11,,,,,11.8379835,,11.8232603,11.8379835,11.8379835,12.4733412,1.9,0.6296179,,,,,,,,,,,,,,,953895,1,2024-11-07_23h47.02.163,word priming experiment,2024.1.5,None,2024-11-07 23h47.20.564627 +0530
keys,,,,0,17,17,13,,,,,12.4889832,,12.4735905,12.4889832,12.4889832,13.3727061,3.174074074,0.8765829,,,,,,,,,,,,,,,953895,1,2024-11-07_23h47.02.163,word priming experiment,2024.1.5,None,2024-11-07 23h47.20.564627 +0530
pastry,,,,0,18,18,9,,,,,13.3860165,,13.3729391,13.3860165,13.3860165,14.0082362,3.707407407,0.597084,,,,,,,,,,,,,,,953895,1,2024-11-07_23h47.02.163,word priming experiment,2024.1.5,None,2024-11-07 23h47.20.564627 +0530
board,,,,0,19,19,4,,,,,14.023272,,14.0085044,14.023272,14.023272,14.4560053,3.711111111,0.4262143,,,,,,,,,,,,,,,953895,1,2024-11-07_23h47.02.163,word priming experiment,2024.1.5,None,2024-11-07 23h47.20.564627 +0530
,l_pt_p,laptop,old,,,,,0,0,0,0,14.4731332,,,,,,,,14.4609501,14.4731332,14.4731332,14.4731332,0.0082266,21.6693476,laptop,"[-0.012037037037037037, -0.008333333333333333]","[-0.3416666666666667, -0.3175925925925926]","[1, 1]","[0, 0]","[0, 0]","[6.4393678000196815, 7.2044447001535445]",['text_3'],953895,1,2024-11-07_23h47.02.163,word priming experiment,2024.1.5,None,2024-11-07 23h47.20.564627 +0530
,k_y_,keys,old,,,,,0,1,1,8,21.6851563,,,,,,,,21.6704429,21.6851563,21.6851563,21.6851563,0.0023945,22.1857994,,[-0.008333333333333333],[-0.3175925925925926],[1],[0],[0],[0.512653199955821],['text_3'],953895,1,2024-11-07_23h47.02.163,word priming experiment,2024.1.5,None,2024-11-07 23h47.20.564627 +0530
,bo_t_e,bottle,new,,,,,0,2,2,18,22.2018405,,,,,,,,22.1863249,22.2018405,22.2018405,22.2018405,0.002176,26.1538902,bottle,[-0.04259259259259259],[-0.2898148148148148],[1],[0],[0],[3.964608200127259],['text_3'],953895,1,2024-11-07_23h47.02.163,word priming experiment,2024.1.5,None,2024-11-07 23h47.20.564627 +0530
,p_nc_l,pencil,new,,,,,0,3,3,16,26.1685354,,,,,,,,26.1549013,26.1685354,26.1685354,26.1685354,0.0046415,31.4180973,pencil,[-0.04351851851851852],[-0.30833333333333335],[1],[0],[0],[5.258204400073737],['text_3'],953895,1,2024-11-07_23h47.02.163,word priming experiment,2024.1.5,None,2024-11-07 23h47.20.564627 +0530
,c_m_ra,camera,new,,,,,0,4,4,19,31.4339365,,,,,,,,31.4186789,31.4339365,31.4339365,31.4339365,0.0028202,33.0845702,,[-0.04351851851851852],[-0.30833333333333335],[1],[0],[0],[1.6627456999849528],['text_3'],953895,1,2024-11-07_23h47.02.163,word priming experiment,2024.1.5,None,2024-11-07 23h47.20.564627 +0530
,T_hi_t,Tshirt,old,,,,,0,5,5,2,33.100687,,,,,,,,33.085121,33.100687,33.100687,33.100687,0.0023615,36.9008509,Tshirt,[-0.04351851851851852],[-0.30833333333333335],[1],[0],[0],[3.8129195000510663],['text_3'],953895,1,2024-11-07_23h47.02.163,word priming experiment,2024.1.5,None,2024-11-07 23h47.20.564627 +0530
,_ou_e,mouse,old,,,,,0,6,6,3,36.9164305,,,,,,,,36.9015722,36.9164305,36.9164305,36.9164305,0.0028509,40.1674936,mouse,[-0.04351851851851852],[-0.30833333333333335],[1],[0],[0],[3.2625159001909196],['text_3'],953895,1,2024-11-07_23h47.02.163,word priming experiment,2024.1.5,None,2024-11-07 23h47.20.564627 +0530
,v_s_,vase,new,,,,,0,7,7,17,40.1879935,,,,,,,,40.1686318,40.1879935,40.1879935,40.1879935,0.004645,43.5171746,vase,[-0.04351851851851852],[-0.30833333333333335],[1],[0],[0],[3.343343700049445],['text_3'],953895,1,2024-11-07_23h47.02.163,word priming experiment,2024.1.5,None,2024-11-07 23h47.20.564627 +0530
,p_li_e,police,old,,,,,0,8,8,7,43.5340407,,,,,,,,43.5183825,43.5340407,43.5340407,43.5340407,0.0044252,45.0335652,,[-0.04351851851851852],[-0.30833333333333335],[1],[0],[0],[1.5103275999426842],['text_3'],953895,1,2024-11-07_23h47.02.163,word priming experiment,2024.1.5,None,2024-11-07 23h47.20.564627 +0530
,_ru_s_,cruise,old,,,,,0,9,9,6,45.0488188,,,,,,,,45.0340767,45.0488188,45.0488188,45.0488188,0.0027004,48.349165,cruise,[-0.04351851851851852],[-0.30833333333333335],[1],[0],[0],[3.3119498000014573],['text_3'],953895,1,2024-11-07_23h47.02.163,word priming experiment,2024.1.5,None,2024-11-07 23h47.20.564627 +0530
,ta_l_,table,new,,,,,0,10,10,15,48.3653792,,,,,,,,48.3498262,48.3653792,48.3653792,48.3653792,0.0027871,51.4506462,table,[-0.04351851851851852],[-0.30833333333333335],[1],[0],[0],[3.0974504000041634],['text_3'],953895,1,2024-11-07_23h47.02.163,word priming experiment,2024.1.5,None,2024-11-07 23h47.20.564627 +0530
,_ha_t,chart,old,,,,,0,11,11,1,51.4655138,,,,,,,,51.4516451,51.4655138,51.4655138,51.4655138,0.0041382,54.5152105,chart,[-0.04351851851851852],[-0.30833333333333335],[1],[0],[0],[3.0590566999744624],['text_3'],953895,1,2024-11-07_23h47.02.163,word priming experiment,2024.1.5,None,2024-11-07 23h47.20.564627 +0530
,_ho_e,phone,old,,,,,0,12,12,12,54.5307767,,,,,,,,54.5158683,54.5307767,54.5307767,54.5307767,0.0027039,58.714561,phone,[-0.04351851851851852],[-0.30833333333333335],[1],[0],[0],[4.1955520999617875],['text_3'],953895,1,2024-11-07_23h47.02.163,word priming experiment,2024.1.5,None,2024-11-07 23h47.20.564627 +0530
,_o_rd,board,old,,,,,0,13,13,10,58.7300685,,,,,,,,58.7151883,58.7300685,58.7300685,58.7300685,0.0027304,63.5804981,board,[-0.04351851851851852],[-0.30833333333333335],[1],[0],[0],[4.862113100010902],['text_3'],953895,1,2024-11-07_23h47.02.163,word priming experiment,2024.1.5,None,2024-11-07 23h47.20.564627 +0530
,p_s_r_,pastry,old,,,,,0,14,14,4,63.5962539,,,,,,,,63.5812031,63.5962539,63.5962539,63.5962539,0.002784,68.2798827,pastry,[-0.04351851851851852],[-0.30833333333333335],[1],[0],[0],[4.695547699928284],['text_3'],953895,1,2024-11-07_23h47.02.163,word priming experiment,2024.1.5,None,2024-11-07 23h47.20.564627 +0530
,p_st_r,poster,old,,,,,0,15,15,9,68.2956667,,,,,,,,68.2804731,68.2956667,68.2956667,68.2956667,0.0026888,71.9129893,poster,[-0.04351851851851852],[-0.30833333333333335],[1],[0],[0],[3.6293450999073684],['text_3'],953895,1,2024-11-07_23h47.02.163,word priming experiment,2024.1.5,None,2024-11-07 23h47.20.564627 +0530
,_oo_,book,old,,,,,0,16,16,13,71.9284979,,,,,,,,71.9136756,71.9284979,71.9284979,71.9284979,0.0029705,73.3128499,,[-0.04351851851851852],[-0.30833333333333335],[1],[0],[0],[1.3958322000689805],['text_3'],953895,1,2024-11-07_23h47.02.163,word priming experiment,2024.1.5,None,2024-11-07 23h47.20.564627 +0530
,c_s_io_,cushion,old,,,,,0,17,17,14,73.3284903,,,,,,,,73.3134012,73.3284903,73.3284903,73.3284903,0.0024048,76.7955652,cushion,[-0.04351851851851852],[-0.30833333333333335],[1],[0],[0],[3.4792938998434693],['text_3'],953895,1,2024-11-07_23h47.02.163,word priming experiment,2024.1.5,None,2024-11-07 23h47.20.564627 +0530
,_a_bl_,marble,old,,,,,0,18,18,11,76.8112418,,,,,,,,76.7962508,76.8112418,76.8112418,76.8112418,0.0028367,80.2953583,marble,[-0.04351851851851852],[-0.30833333333333335],[1],[0],[0],[3.49559780000709],['text_3'],953895,1,2024-11-07_23h47.02.163,word priming experiment,2024.1.5,None,2024-11-07 23h47.20.564627 +0530
,c_s_,case,old,,,,,0,19,19,5,80.3110929,,,,,,,,80.2961249,80.3110929,80.3110929,80.3110929,0.0024313,83.0447738,case,[-0.04351851851851852],[-0.30833333333333335],[1],[0],[0],[2.7457461000885814],['text_3'],953895,1,2024-11-07_23h47.02.163,word priming experiment,2024.1.5,None,2024-11-07 23h47.20.564627 +0530
,,,,,,,,,,,,,,,,,,,,,,,,,,,,,,,,,,,,,,,,
,,,,,,,,,,,,,old,0.8,,old-new,0,,,,,,,,,,,,,,,,,,,,,,,
,,,,,,,,,,,,,new,0.8,,,,,,,,,,,,,,,,,,,,,,,,,,
